Frequency	value	MaxValue	S/N	D1	D2	D3	D4	D0	Ns	PhC	LPFilter	LS	RS	Tx
MHz     	a.u.	a.u.	a.u.	us	us	us	us	ms	scans	1 or 0	Hz	us	us	dB
														
														
30,590	152301,407	132,308	105,358	4,0	8,0	60,0	20,0	2000,0	100,0	1,0	0,0	37,0	53,0	10,3	103
30,640	136981,888	123,173	109,719	4,0	8,0	60,0	20,0	2000,0	100,0	1,0	0,0	37,0	53,0	10,3	104
30,690	88357,472	77,792	66,228	4,0	8,0	60,0	20,0	2000,0	100,0	1,0	0,0	37,0	53,0	10,3	105
30,740	45063,850	39,982	24,572	4,0	8,0	60,0	20,0	2000,0	100,0	1,0	0,0	37,0	53,0	10,3	106
30,790	17873,612	16,500	15,532	4,0	8,0	60,0	20,0	2000,0	100,0	1,0	0,0	37,0	53,0	10,3	107
30,840	4712,560	4,506	3,261	4,0	8,0	60,0	20,0	2000,0	100,0	1,0	0,0	37,0	53,0	10,3	108
30,890	1751,866	1,636	1,113	4,0	8,0	60,0	20,0	2000,0	100,0	1,0	0,0	37,0	53,0	10,3	109
30,540	139962,581	101,634	101,894	4,0	8,0	60,0	20,0	2000,0	100,0	1,0	0,0	37,0	53,0	10,3	110
30,490	85197,926	54,833	72,850	4,0	8,0	60,0	20,0	2000,0	100,0	1,0	0,0	37,0	53,0	10,3	111
30,440	18964,400	13,985	20,361	4,0	8,0	60,0	20,0	2000,0	100,0	1,0	0,0	37,0	53,0	10,3	112
30,390	4157,249	3,570	2,481	4,0	8,0	60,0	20,0	2000,0	100,0	1,0	0,0	37,0	53,0	10,3	113
30,340	2052,404	2,112	1,445	4,0	8,0	60,0	20,0	2000,0	100,0	1,0	0,0	37,0	53,0	10,3	114
