Frequency	value	MaxValue	S/N	D1	D2	D3	D4	D0	Ns	PhC	LPFilter	LS	RS	Tx
MHz     	a.u.	a.u.	a.u.	us	us	us	us	ms	scans	1 or 0	Hz	us	us	dB
														
														
30,600	282766,497	241,630	193,190	4,0	8,0	60,0	20,0	2000,0	200,0	1,0	0,0	37,0	53,0	10,3	88
30,550	253004,714	180,946	107,732	4,0	8,0	60,0	20,0	2000,0	200,0	1,0	0,0	37,0	53,0	10,3	89
30,500	143417,963	88,498	69,071	4,0	8,0	60,0	20,0	2000,0	200,0	1,0	0,0	37,0	53,0	10,3	90
30,450	26869,855	20,367	13,210	4,0	8,0	60,0	20,0	2000,0	200,0	1,0	0,0	37,0	53,0	10,3	91
30,650	255206,077	223,167	155,756	4,0	8,0	60,0	20,0	2000,0	200,0	1,0	0,0	37,0	53,0	10,3	92
30,700	163443,155	142,871	75,630	4,0	8,0	60,0	20,0	2000,0	200,0	1,0	0,0	37,0	53,0	10,3	93
30,750	80638,953	67,301	37,001	4,0	8,0	60,0	20,0	2000,0	200,0	1,0	0,0	37,0	53,0	10,3	94
30,800	28729,147	26,404	13,145	4,0	8,0	60,0	20,0	2000,0	200,0	1,0	0,0	37,0	53,0	10,3	95
30,850	6391,715	7,384	3,238	4,0	8,0	60,0	20,0	2000,0	200,0	1,0	0,0	37,0	53,0	10,3	96
30,900	2994,239	3,240	1,431	4,0	8,0	60,0	20,0	2000,0	200,0	1,0	0,0	37,0	53,0	10,3	97
30,400	7751,166	6,090	4,577	4,0	8,0	60,0	20,0	2000,0	200,0	1,0	0,0	37,0	53,0	10,3	98
30,350	3737,845	3,595	1,734	4,0	8,0	60,0	20,0	2000,0	200,0	1,0	0,0	37,0	53,0	10,3	99
