Frequency	value	MaxValue	S/N	D1	D2	D3	D4	D0	Ns	PhC	LPFilter	LS	RS	Tx
MHz     	a.u.	a.u.	a.u.	us	us	us	us	ms	scans	1 or 0	Hz	us	us	dB
														
														
30,580	78890,612	66,817	106,235	4,0	8,0	200,0	160,0	3000,0	60,0	1,0	0,0	37,0	53,0	10,3	143
30,630	68521,522	60,233	59,393	4,0	8,0	200,0	160,0	3000,0	60,0	1,0	0,0	37,0	53,0	10,3	144
30,680	45626,954	39,636	39,118	4,0	8,0	200,0	160,0	3000,0	60,0	1,0	0,0	37,0	53,0	10,3	145
30,730	23115,371	20,211	26,085	4,0	8,0	200,0	160,0	3000,0	60,0	1,0	0,0	37,0	53,0	10,3	146
30,780	9711,153	8,926	9,018	4,0	8,0	200,0	160,0	3000,0	60,0	1,0	0,0	37,0	53,0	10,3	147
30,830	2633,798	3,060	2,417	4,0	8,0	200,0	160,0	3000,0	60,0	1,0	0,0	37,0	53,0	10,3	148
30,880	1399,254	1,397	2,999	4,0	8,0	200,0	160,0	3000,0	60,0	1,0	0,0	37,0	53,0	10,3	149
30,530	66505,869	48,823	92,243	4,0	8,0	200,0	160,0	3000,0	60,0	1,0	0,0	37,0	53,0	10,3	150
30,480	36274,580	22,913	33,189	4,0	8,0	200,0	160,0	3000,0	60,0	1,0	0,0	37,0	53,0	10,3	151
30,430	6283,975	4,902	5,960	4,0	8,0	200,0	160,0	3000,0	60,0	1,0	0,0	37,0	53,0	10,3	152
30,380	1519,509	1,252	1,800	4,0	8,0	200,0	160,0	3000,0	60,0	1,0	0,0	37,0	53,0	10,3	153
30,330	928,387	1,065	1,038	4,0	8,0	200,0	160,0	3000,0	60,0	1,0	0,0	37,0	53,0	10,3	154
