Frequency	value	MaxValue	S/N	D1	D2	D3	D4	D0	Ns	PhC	LPFilter	LS	RS	Tx
MHz     	a.u.	a.u.	a.u.	us	us	us	us	ms	scans	1 or 0	Hz	us	us	dB
														
														
30,682	520237,250	355,010	196,065	4,0	8,0	60,0	20,0	1500,0	300,0	1,0	0,0	34,0	57,0	10,3	60
30,632	472135,173	283,508	226,691	4,0	8,0	60,0	20,0	1500,0	300,0	1,0	0,0	34,0	57,0	10,3	61
30,732	483226,265	290,468	145,505	4,0	8,0	60,0	20,0	1500,0	300,0	1,0	0,0	34,0	57,0	10,3	62
